File: geochemistry_XRF_VIL.csv
AgeCal (Valero-Garces et al 2019)),Section,Depth (mm from section top),Composite depth (mm),Field ID,Sec Depth T (cm),position (mm from section top ITRAX),sample surface,validity,kcps,Si,Ca,Ti,Mn,Fe,Se,Rb,Sr,Y,Zr,Pb,inc,coh
2730.1,2,20,620,VIL05-1B-2T,2,20.04,6.57,1,24765,159,324066,243,347,9496,390,128,12166,246,1999,403,42411,20508
3299.5,2,140,740,VIL05-1B-2T,14,140.04,6.7,1,24712,58,332868,54,236,3056,403,0,12531,224,1695,340,41784,19983
3869.4,2,260,860,VIL05-1B-2T,26,260.04,6.82,1,26044,60,346076,120,102,4250,417,0,15515,268,2025,520,43724,20506
4455.5,2,380,980,VIL05-1B-2T,38,380.04,6.72,1,26252,91,356910,136,506,11956,345,4,15032,266,1713,408,40001,19969
5057.2,2,500,1100,VIL05-1B-2T,50,500.04,6.71,1,26795,120,375804,150,612,13662,370,0,14770,212,1897,568,38950,19765
6008.2,3,25,1290.5,VIL05-1B-3T,2.5,725.04,6.73,1,25608,106,344418,96,429,4856,481,0,13653,291,1877,299,42101,20520
6725.1,3,145,1436.9,VIL05-1B-3T,14.5,845.04,6.85,1,25312,94,322933,128,369,13168,512,0,13247,141,2011,425,44100,20318
7441.6,3,265,1583.3,VIL05-1B-3T,26.5,965.04,6.91,1,25010,6,257338,230,622,18687,540,0,17368,592,2391,486,55642,21848
8149.6,3,385,1729.7,VIL05-1B-3T,38.5,1085.04,6.99,1,26069,49,329139,87,587,21447,483,0,15393,390,1932,503,44033,20486
9195.1,4,30,1950,VIL05-1B-4T,3,1220.04,6.99,1,26566,217,367001,82,559,6770,279,0,17154,352,2016,301,41518,20510
9765.6,4,150,2070,VIL05-1B-4T,15,1340.04,6.95,1,26550,167,364733,41,427,6720,544,0,18976,111,1636,481,40767,20468
10336.5,4,270,2190,VIL05-1B-4T,27,1460.04,6.86,1,26341,208,360541,107,779,7813,532,0,18021,374,2115,614,41303,20264
10908.4,4,390,2310,VIL05-1B-4T,39,1580.04,6.99,1,24578,463,288597,966,554,24012,626,257,17887,397,2365,379,42649,20417
11482.6,4,510,2430,VIL05-1B-4T,51,1700.04,6.92,1,21816,1536,135095,3284,165,55145,375,1426,12447,686,5421,456,52759,22469
12128.5,5,45,2565,VIL05-1B-5T,4.5,45.04,7.15,1,21780,1551,93324,4928,409,74285,534,2108,8147,823,6485,246,55573,23194
12595.1,5,165,2685,VIL05-1B-5T,16.5,165.04,6.99,1,21702,1266,131264,3574,391,58021,403,1666,8551,839,5554,373,51650,22319
12992.9,5,285,2805,VIL05-1B-5T,28.5,285.04,7.07,1,21763,943,157186,2936,437,51375,451,1621,12564,509,4046,324,48384,21139
13392.1,5,405,2925,VIL05-1B-5T,40.5,405.04,7.05,1,22120,1029,161464,3027,516,58744,462,1338,12491,473,3902,366,47496,21945
13790.9,5,525,3045,VIL05-1B-5T,52.5,525.04,7.14,1,23060,1082,161472,3053,590,72079,469,1458,12628,608,4405,222,48698,22319
14207.3,6,52.5,3169.35,VIL05-1B-6T,5.25,660.04,7.51,1,23717,1490,150111,3697,727,112913,423,1606,11065,470,4313,415,46494,22067
14590.4,6,172.5,3282.15,VIL05-1B-6T,17.25,780.04,7.56,1,24450,1315,144284,3503,845,143675,462,1750,9890,844,3964,358,46561,21932
14976.5,6,292.5,3394.95,VIL05-1B-6T,29.25,900.04,7.63,1,23491,1359,155702,3355,996,108845,378,1611,9528,522,4097,222,45812,21746
15363,6,412.5,3507.75,VIL05-1B-6T,41.25,1020.04,7.54,1,24116,1653,121659,4252,960,130891,497,2785,9062,690,4215,676,51268,22504
16055.4,7,165,3711.4,VIL05-1B-7T,16.5,1335.04,7.61,1,22982,1676,132100,4188,865,101119,461,2338,9354,771,4154,391,48525,21891
16527.3,7,285,3850.6,VIL05-1B-7T,28.5,1455.04,7.49,1,23030,1442,139872,3879,989,111990,424,1811,8564,788,3671,441,45798,21248
16992.3,7,405,3989.8,VIL05-1B-7T,40.5,1575.04,7.61,1,22624,1565,150716,4036,1438,84650,284,1641,7585,635,3949,169,47144,22184
17701.2,8,22.5,4202.5,VIL05-1B-8T,2.25,16.04,7.01,1,20955,848,185729,1866,1034,59027,360,599,9140,401,3314,262,39548,19916
18098.7,8,142.5,4322.5,VIL05-1B-8T,14.25,136.04,7.4,1,24422,777,186728,2378,2227,124330,292,897,8392,490,3297,437,42136,20897
18497.7,8,262.5,4442.5,VIL05-1B-8T,26.25,256.04,7.41,1,22334,610,194130,2137,1055,55689,471,964,10245,423,3500,372,43468,21317
18895.4,8,382.5,4562.5,VIL05-1B-8T,38.25,376.04,7.49,1,23315,769,203120,2444,1244,62974,354,889,9871,276,3341,217,44972,21363
19294.1,8,502.5,4682.5,VIL05-1B-8T,50.25,496.04,7.42,1,23635,837,176136,2962,1425,84830,464,1062,8059,834,3821,132,47505,22038
19724.6,9,32.5,4813.475,VIL05-1B-9T,3.25,1150.04,7.81,1,25247,971,210773,2630,1997,102361,420,1264,9590,687,3373,300,45205,22136
20135.7,9,152.5,4937.075,VIL05-1B-9T,15.25,1030.04,7.9,1,23728,1033,201133,2740,1826,81316,383,869,8381,221,3470,250,44174,21660
20547.5,9,272.5,5060.675,VIL05-1B-9T,27.25,910.04,7.8,1,24150,841,215339,2435,1999,90023,339,764,9277,477,2826,253,42192,21028
20876.3,9,392.5,5184.275,VIL05-1B-9T,39.25,790.04,7.51,1,24479,829,215241,2244,1718,86002,569,874,9279,643,2871,277,45094,22077
21153.5,9,512.5,5307.875,VIL05-1B-9T,51.25,670.04,7.64,1,24609,683,254419,1815,1851,70358,420,820,9938,413,2395,121,40254,21274
21415.3,10,57.5,5423.7,VIL05-1B-10T,5.75,1260.04,8.01,1,24521,1186,247635,1949,1779,81943,428,817,10088,470,2661,422,38528,20569
21619.7,10,177.5,5514.9,VIL05-1B-10T,17.75,1380.04,8.45,1,25804,1230,243325,2486,1727,109392,272,1038,10220,406,2506,449,39196,20711
22273.4,11,200,5806,VIL05-1B-11T,20,200.04,7.19,1,24731,1197,183057,2844,1219,129942,446,1679,9404,620,2820,539,41970,19953
22579,11,320,5941.6,VIL05-1B-11T,32,320.04,7.28,1,25583,1165,174888,2973,1126,170162,240,1339,8129,339,2543,784,38788,19480
22882,11,440,6077.2,VIL05-1B-11T,44,440.04,7.39,1,25518,1191,189586,2454,1268,152523,349,1425,8802,364,2802,444,39353,20062
23187.6,11,560,6212.8,VIL05-1B-11T,56,560.04,7.49,1,25286,1288,212693,2653,1357,109001,237,1507,10553,527,3184,596,41436,21134
23432.3,12,95,6321.7,VIL05-1B-12T,9.5,720.04,7.34,1,23739,1439,197512,2709,1126,84526,274,1595,10562,484,3190,422,42631,21037
23663.1,12,215,6424.9,VIL05-1B-12T,21.5,840.04,7.27,1,24297,1431,165914,3057,1064,133350,417,1595,6711,509,3292,264,41876,20208
23895,12,335,6528.1,VIL05-1B-12T,33.5,960.04,7.09,1,23077,1240,161830,2775,1029,104138,356,1671,6455,231,3113,418,41852,19870
24125,12,455,6631.3,VIL05-1B-12T,45.5,1080.04,7.11,1,25103,1583,169152,3257,1268,145555,418,1786,6413,377,3207,540,42464,20836
24488.5,13,112.5,6793,VIL05-1B-13T,11.25,1410.04,7.32,1,22251,2191,161944,3163,761,67905,421,1051,4945,199,4846,234,46980,21584
24852.9,13,232.5,6956.2,VIL05-1B-13T,23.25,1530.04,7.02,1,23521,1364,169165,2902,1265,111570,301,1663,7802,718,3007,444,41815,19931
25214.8,13,352.5,7119.4,VIL05-1B-13T,35.25,1650.04,7.09,1,24026,1187,170906,3463,1607,117119,525,1654,6558,540,3008,472,42783,20302
25710,14,45,7342.75,VIL05-1B-14T,4.5,45.04,7.1,1,23976,1065,194228,2756,1267,100055,524,1553,7483,573,3019,482,42244,20589
25962.4,14,165,7456.75,VIL05-1B-14T,16.5,165.04,7.17,1,24219,1029,188745,2801,1701,108824,323,1597,6813,552,2605,556,42415,20870
26215.6,14,285,7570.75,VIL05-1B-14T,28.5,285.04,7.21,1,26150,1061,139423,3552,1700,211398,218,2045,4717,687,3130,834,43527,20193
26390.1,14,405,7684.75,VIL05-1B-14T,40.5,405.04,7.35,1,27583,1021,173788,2979,2291,232005,73,1542,5565,672,2705,685,39437,19600
26524.7,14,525,7798.75,VIL05-1B-14T,52.5,525.04,7.34,1,27347,1133,133219,3502,1970,250773,207,1883,4452,647,2761,925,42840,20184
26660.2,14,645,7912.75,VIL05-1B-14T,64.5,645.04,7.2,1,25568,1343,176309,3522,1736,141362,384,1627,6668,613,3165,620,46760,22216
26803.3,15,122.5,8022.5,VIL05-1B-15T,12.25,765.04,7.32,1,23649,799,181438,2208,1541,94955,385,578,6546,621,2958,364,44913,21358
26947.5,15,242.5,8142.5,VIL05-1B-15T,24.25,885.04,7.26,1,22514,648,150169,2327,1519,96238,427,1041,5999,483,2958,421,44863,21099
27094.6,15,362.5,8262.5,VIL05-1B-15T,36.25,1005.04,7.38,1,23199,1150,220866,2216,1319,64951,207,362,6723,535,2400,288,42038,20900
27241.2,15,482.5,8382.5,VIL05-1B-15T,48.25,1125.04,7.13,1,22960,932,217183,1450,1147,47657,283,379,9864,437,3029,306,44999,21793
27492.3,16,25,8585,VIL05-1B-16T,2.5,20.04,7.09,1,22523,872,227228,1662,1048,53980,492,568,7448,225,2552,299,38430,20044
27637.8,16,145,8705,VIL05-1B-16T,14.5,140.04,7.18,1,24209,1052,190556,2840,733,96005,349,1528,9922,512,2896,339,44872,21265
27783.4,16,265,8825,VIL05-1B-16T,26.5,260.04,7.19,1,23520,908,196590,2679,909,69330,496,1015,9373,519,3398,232,44895,21770
27927.3,16,385,8945,VIL05-1B-16T,38.5,380.04,7.21,1,24245,1188,159662,3211,1223,122583,459,2171,8078,505,2804,467,46040,21122
28072,16,505,9065,VIL05-1B-16T,50.5,500.04,7.17,1,24905,1038,199790,2481,1197,111221,192,1448,9985,479,2601,627,43793,20940
28243.1,17,47.5,9207.5,VIL05-1B-17T,4.75,640.04,6.89,1,25658,961,196879,2722,906,134885,196,1135,8721,410,2793,562,42567,20518
28385.8,17,167.5,9327.5,VIL05-1B-17T,16.75,760.25,6.29,0,6654,66,10958,100,0,3689,256,452,2988,322,1684,296,27127,13030
28529.6,17,287.5,9447.5,VIL05-1B-17T,28.75,880.04,7.17,1,19378,2460,145450,1315,391,22039,94,145,4201,136,2563,526,47514,21874
28672.7,17,407.5,9567.5,VIL05-1B-17T,40.75,1000.04,7.21,1,24234,1222,152232,3188,991,134736,401,1852,7809,786,2810,510,44158,20675
28815.1,17,527.5,9687.5,VIL05-1B-17T,52.75,1120.04,7.28,1,25147,1135,149386,2999,1030,173052,413,1963,6023,315,2621,731,42008,19914
28976.6,18,62.5,9822.5,VIL05-1B-18T,6.25,1310.04,8.26,0,4439,26,201,48,0,808,193,873,2601,411,1503,176,19572,8536
29118.9,18,182.5,9942.5,VIL05-1B-18T,18.25,1430.04,7.29,1,24368,1354,166021,3597,1066,119794,370,2111,8210,602,2995,634,44888,21276
29387.7,19,105,10239.3,VIL05-1B-19T,10.5,440.04,6.95,1,23389,1065,170416,3139,932,97543,445,1760,9211,787,2933,498,44771,21151
29579,19,225,10558.5,VIL05-1B-19T,22.5,560.04,7.17,1,23506,877,198685,2372,1034,77332,365,1413,11762,674,2343,458,42769,20904
29674.1,20,110,10785,VIL05-1B-20T,11,1475.04,7.53,1,30541,1099,144016,2909,1503,368755,0,2051,7675,240,2398,1747,32652,16985
29772,20,230,10965,VIL05-1B-20T,23,1595.04,7.45,1,24976,1224,182223,2762,848,139388,314,1844,11665,833,2885,702,42597,20125
29871.2,20,350,11145,VIL05-1B-20T,35,1715.04,7.32,1,23615,1403,140602,3183,843,154490,331,1936,9347,460,2989,605,41035,19891
29979.1,21,67.5,11347.5,VIL05-1B-21T,6.75,635.04,7.02,1,24741,772,171637,2316,501,139485,370,1463,11254,623,2634,620,43017,20410
30045.4,21,187.5,11467.5,VIL05-1B-21T,18.75,755.04,7.07,1,27465,687,179813,2278,1034,223008,219,1198,10108,382,2567,779,38352,19287
30116,21,307.5,11587.5,VIL05-1B-21T,30.75,875.04,7.03,1,26614,686,244223,1392,1500,134989,180,753,15458,356,2388,492,38876,20106
30181.6,21,427.5,11707.5,VIL05-1B-21T,42.75,995.04,7.13,1,25241,692,227269,1648,1127,95898,216,928,16438,489,2548,417,42867,21118
30246.2,21,547.5,11827.5,VIL05-1B-21T,54.75,1115.04,7.13,1,24657,683,214898,1850,1256,92220,327,1275,16455,594,2738,579,43002,20751
30324.2,22,87.5,11967.5,VIL05-1B-22T,8.75,75.04,7.03,1,25091,975,185211,2291,1153,115435,414,1392,14622,636,2801,462,47009,21743
30387.9,22,207.5,12087.5,VIL05-1B-22T,20.75,195.04,6.97,1,24975,679,250792,1285,1405,66823,475,722,19668,402,2475,497,43465,20889
30455,22,327.5,12207.5,VIL05-1B-22T,32.75,315.04,7.06,1,26199,269,355174,343,1746,15809,646,0,22194,351,1987,349,38416,20488
30517,22,447.5,12327.5,VIL05-1B-22T,44.75,435.04,6.93,1,26169,457,353294,362,1446,17688,432,134,22233,322,2047,396,38799,20727
30582.1,22,567.5,12447.5,VIL05-1B-22T,56.75,555.04,6.77,1,27012,461,368257,383,1784,18141,233,0,23057,290,2190,194,39115,20985
30657.9,23,112.5,12592.5,VIL05-1B-23T,11.25,705.04,6.79,1,24910,259,299716,435,1346,20660,437,288,19214,445,2162,588,42159,21291
30957.5,23,232.5,12712.5,VIL05-1B-23T,23.25,825.04,6.83,1,24430,498,249979,1151,1114,38572,551,663,17387,340,2617,594,45959,21922
31267.1,23,352.5,12832.5,VIL05-1B-23T,35.25,945.04,6.84,1,25071,244,314845,404,906,19400,456,168,22926,326,2062,440,38726,20150
31576.1,23,472.5,12952.5,VIL05-1B-23T,47.25,1065.04,6.65,1,24755,348,290167,580,823,28300,485,315,21789,377,1840,370,40637,20684
31912.6,24,0,13080,VIL05-1B-24T,0,10.04,9.63,1,,,,,,,,,,,,,,
32280.1,24,120,13220.4,VIL05-1B-24T,12,130.04,8.13,1,27330,557,310272,850,709,92280,230,283,17001,266,1899,415,36432,19275
32616,25,70,13350,VIL05-1B-25T,7,270.04,7.53,1,25612,574,295063,1058,1061,40252,450,532,19776,525,2306,309,40935,20231
32935.7,25,190,13470,VIL05-1B-25T,19,390.04,7.55,1,25545,667,279359,1149,860,47816,353,385,16418,515,2059,389,43423,20720
33248.6,25,310,13590,VIL05-1B-25T,31,510.04,7.41,1,25074,554,302390,839,906,34258,305,334,15025,459,2089,336,39906,19900
33558.5,25,430,13710,VIL05-1B-25T,43,630.04,7.52,1,23329,458,238657,727,544,70635,406,368,14390,507,2160,347,38054,18886
33870.3,25,550,13830,VIL05-1B-25T,55,750.04,7.45,1,24152,526,268324,727,653,60580,384,571,14775,240,2178,407,37353,18746
34322,26,77.5,14008.2,VIL05-1B-26T,7.75,1280.04,7.1,1,23517,974,183469,2529,699,95761,397,1002,9926,457,2997,208,43030,21383
34596.1,26,197.5,14113.8,VIL05-1B-26T,19.75,1400.04,7.11,1,24791,1095,130108,3298,644,180924,359,1591,7493,435,3095,446,43676,20277
34922,27,100,14240,VIL05-1B-27T,10,1290.04,7.39,1,26334,695,304157,984,1236,45795,451,493,27870,430,2307,627,40954,20856
35233.9,27,220,14360,VIL05-1B-27T,22,1410.04,7.18,1,25158,824,235671,1546,882,68184,563,813,26011,363,2651,409,45562,21171
35545.4,27,340,14480,VIL05-1B-27T,34,1530.04,7.18,1,25736,530,295883,852,808,40784,413,316,27772,574,2189,155,41498,20253
35858.6,27,460,14600,VIL05-1B-27T,46,1650.04,7.17,1,25770,506,304656,763,1083,33365,340,420,28431,327,2011,379,39740,20115
36169.1,27,580,14720,VIL05-1B-27T,58,1770.04,7.18,1,26402,258,364406,203,779,10734,572,204,30225,220,1991,498,36782,19686
36698.1,28,112.5,14923.75,VIL05-1B-28T,11.25,930.04,7.18,1,24995,175,290821,208,591,19711,474,0,31161,346,2035,387,42238,20386
37040.7,28,232.5,15055.75,VIL05-1B-28T,23.25,1050.04,7.51,1,25833,219,316845,327,631,20766,471,340,30406,485,2352,489,40069,19982
37251.3,28,352.5,15187.75,VIL05-1B-28T,35.25,1170.04,7.69,1,25342,492,273043,859,960,41770,405,541,26209,625,2170,406,43826,20919
37397.7,28,472.5,15319.75,VIL05-1B-28T,47.25,1290.04,7.4,1,25913,483,265043,1071,910,49538,445,856,25014,593,2584,409,47293,21545
37562.5,29,120,15467.2,VIL05-1B-29T,12,110.04,8.12,1,24895,894,129009,3102,699,137949,574,3015,10900,963,3216,569,52799,21910
37705.3,29,240,15594.4,VIL05-1B-29T,24,230.04,8.02,1,24424,898,110873,3635,829,136041,451,3505,9834,635,3307,705,54408,22385
37855.1,29,360,15721.6,VIL05-1B-29T,36,350.04,7.84,1,23825,1079,147899,3497,1110,92453,454,2446,11211,691,3555,345,52878,23410
38006.4,29,480,15848.8,VIL05-1B-29T,48,470.04,7.83,1,24151,1012,100834,4033,1211,127220,588,3924,11667,972,3780,464,57858,23283
38188.2,30,20,16001,VIL05-1B-30T,2,610.04,8.15,1,24242,990,144156,3338,1562,98765,286,2634,16655,854,3569,426,52072,22165
38339.1,30,140,16127,VIL05-1B-30T,14,730.04,8.16,1,24119,1096,120461,3667,1395,116260,249,2909,13592,732,3551,457,53105,22221
38490.8,30,260,16253,VIL05-1B-30T,26,850.04,8.16,1,25520,853,136158,2911,1911,153378,470,2327,16754,532,3017,674,49589,21037
38634.5,30,380,16379,VIL05-1B-30T,38,970.04,8.06,1,25807,675,247845,1477,1039,63578,427,840,29046,498,2656,552,45557,21723
38781.1,30,500,16505,VIL05-1B-30T,50,1090.04,7.96,1,25323,1016,130394,3686,1053,161450,322,2743,10281,430,3298,772,47578,21260
38931.4,31,27.5,16638.05,VIL05-1B-31T,2.75,1235.04,8.2,1,25366,955,125843,3526,1444,175385,420,2720,12534,351,3117,732,46056,20656
39064.9,31,147.5,16760.45,VIL05-1B-31T,14.75,1355.04,7.99,1,25566,972,125977,3628,1406,174353,470,2654,12995,722,3249,693,47022,20824
39200.7,31,267.5,16882.85,VIL05-1B-31T,26.75,1475.04,7.91,1,24696,1014,119856,3569,1396,165994,359,2899,10862,485,3140,663,46567,21078
39325.3,31,387.5,17005.25,VIL05-1B-31T,38.75,1595.04,8.05,1,22625,909,100868,3508,1262,145268,426,3135,8172,858,3238,597,46201,20064
39447.6,31,507.5,17127.65,VIL05-1B-31T,50.75,1715.04,8.19,1,23998,1003,176374,3091,1390,96453,266,2248,9574,571,3414,507,45455,21638
39586.3,32,65,17256.3,VIL05-1B-32T,6.5,65.04,7.08,1,23567,1078,144086,3520,1021,117749,329,2382,7633,739,3039,606,46295,21859
39716.4,32,185,17378.7,VIL05-1B-32T,18.5,185.04,7.1,1,23279,1115,155367,3349,1194,100766,410,2120,8672,1030,3278,415,47391,22230
39842.8,32,305,17501.1,VIL05-1B-32T,30.5,305.04,7.04,1,23296,1089,159410,3056,1077,105751,468,1984,9871,614,3119,617,45527,21700
39966.7,32,425,17623.5,VIL05-1B-32T,42.5,425.04,7.18,1,23841,1146,164565,2920,1558,106214,397,2323,13923,933,3347,535,47634,22344
40089.7,32,545,17745.9,VIL05-1B-32T,54.5,545.04,7.17,1,23726,1209,160738,3261,1330,96790,394,2429,15634,1102,3265,443,48572,22502
40232.1,33,77.5,17881.375,VIL05-1B-33T,7.75,690.04,7.12,1,24072,542,235774,1523,1159,49032,409,1021,25847,697,2535,412,43141,20873
41086,35,15,18675.75,VIL05-1B-35T,1.5,830.04,6.99,1,24354,1202,202427,2499,945,84230,427,1883,26307,892,2670,391,42710,21236
41234.4,35,135,18801.75,VIL05-1B-35T,13.5,950.04,7.07,1,24158,1046,185130,2411,809,99822,411,2029,24160,936,2858,582,43074,21588
41385.1,35,255,18927.75,VIL05-1B-35T,25.5,1070.04,7.01,1,23741,1106,180656,2351,939,89582,502,2023,23802,810,3065,554,44519,21663
41534.6,35,375,19053.75,VIL05-1B-35T,37.5,1190.04,7.03,1,24194,1071,194051,2368,1188,90834,511,1843,24515,902,2647,476,42963,21053
41688.7,35,495,19179.75,VIL05-1B-35T,49.5,1310.04,7.08,1,24544,996,203545,2070,823,99131,474,1455,24095,726,2573,534,40978,20097
41864,36,50,19317,VIL05-1B-36T,5,115.04,7.01,1,24450,1101,213562,2051,1053,88371,362,1803,24846,709,2742,379,40754,20651
42022.7,36,170,19453.8,VIL05-1B-36T,17,235.04,6.99,1,24027,1014,210765,1914,902,75113,408,1934,25468,585,2679,633,41423,20485
42177.8,36,290,19590.6,VIL05-1B-36T,29,355.04,7.08,1,24040,1192,173677,2707,925,105297,331,2298,21832,588,2809,400,43189,20528
42322.7,36,410,19727.4,VIL05-1B-36T,41,475.04,7.1,1,24426,1264,167552,2736,1126,114670,412,2546,20743,592,2601,573,44399,21333
42535.6,37,12.5,19932.875,VIL05-1B-37T,1.25,600.04,6.92,1,24029,891,187371,2107,999,86633,644,2160,28424,848,2828,369,43195,21475
42657.3,37,132.5,20056.475,VIL05-1B-37T,13.25,720.04,6.96,1,24745,772,208730,1874,1004,80404,522,1731,31775,707,2786,599,43793,21166
42830.2,37,252.5,20180.075,VIL05-1B-37T,25.25,840.04,6.94,1,25195,656,244702,1499,929,64606,462,1261,36062,601,2563,596,40792,21076
43011.7,37,372.5,20303.675,VIL05-1B-37T,37.25,960.04,6.92,1,25323,707,244428,1472,1168,71224,496,1293,35858,631,2321,304,40384,20706
43186.3,37,492.5,20427.275,VIL05-1B-37T,49.25,1080.04,7.05,1,24465,645,232534,1567,1077,67249,482,1372,33872,580,2497,542,39862,20340
43405.7,38,40,20580,VIL05-1B-38T,4,1225.04,7.04,1,24468,1152,214867,1898,1240,88098,337,1689,25454,606,2623,593,40334,20160
43638,38,160,20760,VIL05-1B-38T,16,1345.04,7.09,1,24684,1262,206248,2492,1353,92989,416,2082,23036,899,2854,483,43128,21203
43864.7,38,280,20940,VIL05-1B-38T,28,1465.04,7.1,1,23624,1354,157337,3223,1257,108855,537,2748,13446,891,3184,348,46576,21901
44158,39,5,21185.3,VIL05-1B-39T,0.5,10.04,7.02,1,23730,1600,126611,4058,1377,141422,236,2917,8353,735,3173,263,46072,20946
44288.6,39,125,21312.5,VIL05-1B-39T,12.5,130.04,7.11,1,25099,1572,103459,4290,1459,216044,136,3521,5983,362,2895,482,43525,19894
44426.4,39,245,21439.7,VIL05-1B-39T,24.5,250.04,6.89,1,26086,1415,104364,4119,1239,233531,145,3307,6251,391,2892,543,43931,19742
44557.6,39,365,21566.9,VIL05-1B-39T,36.5,370.04,6.98,1,23904,1558,115183,4177,1104,156893,184,3420,7089,687,2925,305,46174,21094
44682.4,39,485,21694.1,VIL05-1B-39T,48.5,490.04,7.05,1,24132,1586,127911,4151,1341,146147,16,3206,7724,709,3267,244,46382,21519
44820.5,40,7.5,21822.95,VIL05-1B-40T,0.75,630.04,7.18,1,24344,1550,111886,4050,1532,157849,148,3641,6874,666,3515,320,49012,21812
44973.3,40,127.5,21950.15,VIL05-1B-40T,12.75,750.04,7.24,1,24758,1617,106274,4406,1221,178009,153,3591,6242,815,3359,350,47378,20566
45094.8,40,247.5,22077.35,VIL05-1B-40T,24.75,870.04,7.05,1,24014,1614,115222,4004,1309,153162,295,3322,6971,507,3147,295,47822,21290
45228.1,40,367.5,22204.55,VIL05-1B-40T,36.75,990.04,7.21,1,24933,1406,111435,3950,1205,180211,276,3370,6931,321,2997,319,45623,20288
45376.8,40,487.5,22331.75,VIL05-1B-40T,48.75,1110.04,7.19,1,25606,1338,108907,4018,1258,200926,177,3058,6891,542,3036,381,44420,20355
45511.5,41,102.5,22463.65,VIL05-1B-41T,10.25,1315.04,7.15,1,24059,1627,142581,3739,1823,130025,423,3190,11308,699,3109,387,46423,21598
45642.8,41,222.5,22590.85,VIL05-1B-41T,22.25,1435.04,7.05,1,26673,1520,95539,4341,1540,256594,112,3706,5939,578,3032,627,43820,20211
45841.8,41,342.5,22718.05,VIL05-1B-41T,34.25,1555.04,7.12,1,25465,1803,104086,4430,1530,213250,68,3493,6178,737,3432,423,44642,20854
46051,42,70,22851.4,VIL05-1B-42T,7,75.04,6.59,1,24146,1133,110952,3687,1131,160403,208,3154,8107,684,3170,450,47510,20926
46257.1,42,190,22973.8,VIL05-1B-42T,19,195.04,6.52,0,23506,1160,106286,3680,1096,152753,235,2901,8095,640,3209,421,46599,20637
46452.2,42,310,23096.2,VIL05-1B-42T,31,315.04,6.63,1,24920,1290,100252,3898,1289,191345,137,3476,6916,465,3211,394,46802,20752
46668.3,42,430,23218.6,VIL05-1B-42T,43,435.04,6.54,1,24534,1450,89193,4393,1046,194555,201,3380,5607,418,3375,394,45788,20506
46869.7,42,550,23341,VIL05-1B-42T,55,555.04,6.53,0,23597,1493,68211,4792,722,161671,353,4581,5971,605,3818,413,52019,21243
47318.9,43,177.5,23608.625,VIL05-1B-43T,17.75,205.04,8.17,1,24934,1373,103162,4147,1184,172437,250,3838,9302,611,3467,566,49389,20997
47504,43,297.5,23722.625,VIL05-1B-43T,29.75,325.04,8.07,1,24940,1428,101779,4463,981,166382,313,3946,8013,657,3657,544,51421,21930
47686.6,43,417.5,23836.625,VIL05-1B-43T,41.75,445.04,7.89,1,8478,397,8390,478,0,17231,424,2778,4795,729,2695,512,34667,14239
47880.3,44,120,23960,VIL05-1B-44T,12,715.04,6.87,1,24379,1278,91621,4366,710,173361,256,3712,7768,478,3469,459,48885,20980
48057.6,44,240,24080,VIL05-1B-44T,24,835.04,6.87,1,23784,1350,93440,4364,921,161530,306,3384,8533,816,3462,331,48767,20666
48250.1,44,360,24200,VIL05-1B-44T,36,955.04,6.88,1,24427,1460,83414,4378,1065,187144,152,3891,6729,553,3546,557,49714,20925
48428.2,44,480,24320,VIL05-1B-44T,48,1075.04,6.86,1,23718,1458,95805,4536,990,151563,161,3705,8350,905,4101,411,50211,21277
48727.5,45,15,24514.4,VIL05-1B-45T,1.5,470.04,7.15,1,24891,1473,84890,4318,2265,229864,91,3892,5249,624,3167,613,42871,19746
48894.6,45,135,24629.6,VIL05-1B-45T,13.5,590.04,7.58,1,17525,1000,73175,2617,1547,120721,305,2740,5553,621,2720,538,36495,16781
49048.5,45,255,24744.8,VIL05-1B-45T,25.5,710.17,7.65,0,11350,683,38057,1860,594,67136,281,2015,4788,513,2036,499,26780,12523
49212.3,45,375,24860,VIL05-1B-45T,37.5,830.04,7.33,1,24761,1676,80099,5014,1234,192937,293,4429,5992,912,3499,663,49777,21418
49450,46,140,25044.2,VIL05-1B-46T,14,1330.04,7.07,1,23616,1595,124602,3847,1847,135865,188,3373,8062,390,3331,409,46343,21406
49615.3,46,260,25167.8,VIL05-1B-46T,26,1450.04,6.92,1,23156,1631,142700,3872,1608,103639,187,2819,8684,699,3798,444,46181,21167
49827.2,46,380,25291.4,VIL05-1B-46T,38,1570.04,6.79,1,23146,1397,127481,3795,1441,127582,160,3326,8507,620,3381,510,45156,20523
50023.1,46,500,25415,VIL05-1B-46T,50,1690.04,6.75,1,23927,1322,128699,3654,1065,147802,302,3298,8655,441,3009,397,44414,20674
50350.7,47,42.5,25603.775,VIL05-1B-47T,4.25,920.04,7.63,1,23807,1257,122398,4123,978,128745,290,3218,10286,928,3499,371,48899,21309
50569.8,47,162.5,25727.375,VIL05-1B-47T,16.25,1040.04,7.63,1,24969,776,271502,1305,1402,48386,440,795,30394,456,2462,481,38976,20079
50783.4,47,282.5,25850.975,VIL05-1B-47T,28.25,1160.04,7.61,1,25480,922,275190,1282,1366,47085,45,650,32029,798,2542,468,42661,20953
50997.1,47,402.5,25974.575,VIL05-1B-47T,40.25,1280.04,7.7,1,25291,952,255856,1578,1157,54422,90,1141,30923,907,2624,470,43611,21114
51190.8,47,522.5,26098.175,VIL05-1B-47T,52.25,1400.04,7.72,1,25676,789,273457,1355,1210,46823,273,1053,34058,708,2868,390,42792,21134
51432.7,48,75,26238,VIL05-1B-48T,7.5,75.04,6.97,1,24799,528,262894,1029,1057,40355,263,805,33905,651,2631,468,40801,20456
51648.3,48,195,26362.8,VIL05-1B-48T,19.5,195.04,7.1,1,24977,592,253464,1222,983,45531,320,1243,33956,519,2559,695,41942,20486
51848.3,48,315,26487.6,VIL05-1B-48T,31.5,315.04,7.3,1,24203,930,170940,2618,975,94166,385,2475,21714,409,3104,507,46774,20926
53140.9,50,40,27262.8,VIL05-1B-50T,4,695.04,7.07,1,25766,1570,93538,4045,1326,225409,215,4191,6815,672,3143,572,44537,20384
53338.7,50,160,27391.2,VIL05-1B-50T,16,815.04,6.69,1,24963,1576,94884,3912,1243,205266,131,4373,6465,844,3250,726,44630,20439
53527.2,50,280,27519.6,VIL05-1B-50T,28,935.04,6.6,1,24064,1423,88149,3948,1043,222126,238,3713,5652,538,2735,385,39092,18124
53738.5,50,400,27648,VIL05-1B-50T,40,1055.04,7.01,1,25062,1515,90540,4256,1190,211739,0,4365,6172,870,3158,753,45478,20676
54006,50,520,27776.4,VIL05-1B-50T,52,1175.04,7.09,1,24263,1609,105522,4259,981,186109,356,3494,6154,846,3210,267,44321,20800
54221.6,51,55,27895.2,VIL05-1B-51T,5.5,415.04,7.05,1,24384,1475,91231,4083,1193,200540,226,4004,6449,467,3087,584,44195,20218
54388.5,51,175,27972,VIL05-1B-51T,17.5,535.04,7.12,1,24559,1536,104158,4269,969,187235,340,3939,6253,714,3571,427,44851,20563
54873.2,52,100,28214,VIL05-1B-52T,10,105.04,6.85,1,25250,1479,111011,4348,985,188074,249,3740,6718,831,3202,720,46116,20656
55351.4,52,220,28446.8,VIL05-1B-52T,22,225.04,7.1,1,23759,1406,98733,4117,718,182144,157,3483,6076,649,3242,491,43795,20008
55878.4,53,17.5,28697.85,VIL05-1B-53T,1.75,435.04,7.37,1,23718,1285,110728,4519,941,150069,399,2686,7488,670,3716,501,47671,21361
56130.4,53,137.5,28820.25,VIL05-1B-53T,13.75,555.04,7.4,1,24096,1334,90019,5290,620,170639,547,2516,7657,901,3985,443,49915,21314
56371.2,53,257.5,28942.65,VIL05-1B-53T,25.75,675.04,7.43,1,25056,1450,169761,4106,841,120409,374,1830,13303,779,3773,529,46688,21813
56630.5,53,377.5,29065.05,VIL05-1B-53T,37.75,795.04,7.08,1,24795,716,255772,1888,1037,58936,389,915,14625,536,2444,459,41549,20940
56884.6,53,497.5,29187.45,VIL05-1B-53T,49.75,915.04,7.31,1,23265,841,240159,1712,1183,54486,321,907,13593,651,2486,348,39747,20297
57150.1,54,42.5,29323.775,VIL05-1B-54T,4.25,1055.04,7.14,1,23909,1016,233513,2073,1115,63916,374,1415,13171,700,2486,289,41092,20276
57387.2,54,162.5,29447.375,VIL05-1B-54T,16.25,1175.04,7.22,1,24720,1076,225147,2460,940,74969,427,1525,13691,725,2652,570,43247,21481
57623.6,54,282.5,29570.975,VIL05-1B-54T,28.25,1295.04,7.12,1,24335,1435,52495,6492,144,175002,744,4030,7996,468,4148,397,55495,21740
57845.1,54,402.5,29694.575,VIL05-1B-54T,40.25,1415.04,7.18,1,23544,1310,172054,3578,696,93172,376,1596,9879,699,3372,457,45082,21307
58070.5,54,522.5,29818.175,VIL05-1B-54T,52.25,1535.04,7.49,1,23257,1365,164703,3657,535,97405,283,1917,9821,621,3289,342,43876,20716
58435.9,55,95,29992.85,VIL05-1B-55T,9.5,90.07,6.92,1,22115,1212,163950,3273,602,87910,275,1725,9071,937,3284,337,43061,21011
58781.1,56,82.5,30197.975,VIL05-1B-56T,8.25,110.04,6.7,1,28042,731,338994,1257,1790,75914,218,567,12620,416,2089,334,37088,20045
59085.6,56,202.5,30369.575,VIL05-1B-56T,20.25,230.04,6.79,1,25104,583,300649,1134,1104,60120,364,202,11115,364,2058,303,34648,19455
59405.4,56,322.5,30541.175,VIL05-1B-56T,32.25,350.04,7.02,1,24350,638,293686,1257,1014,48170,329,383,9212,402,2091,302,36214,19789
59849.5,57,42.5,30782.5,VIL05-1B-57T,4.25,1290.04,7.46,1,26705,1181,188825,3018,421,207268,186,1233,6215,461,2501,674,36182,18695
60065.2,57,162.5,30902.5,VIL05-1B-57T,16.25,1410.04,7.37,1,25896,1646,98241,5340,152,221805,186,2477,6341,590,3974,551,46545,20449
60287.9,57,282.5,31022.5,VIL05-1B-57T,28.25,1530.04,7.34,1,27032,923,221971,2265,124,181359,37,1068,5483,744,2984,505,38137,19470
61795.4,59,17.5,31817.5,VIL05-1B-59T,1.75,475.04,7.38,1,24256,1314,191906,3212,736,107176,326,1358,9714,417,3017,334,41545,20773
62011.5,59,137.5,31937.5,VIL05-1B-59T,13.75,595.04,7.25,1,24612,1213,208731,2819,1225,102286,264,1282,8652,463,2723,394,40882,20518
62231.5,59,257.5,32057.5,VIL05-1B-59T,25.75,715.04,7.11,1,24621,1206,211645,2500,1145,106513,428,1257,9792,496,3080,556,40488,20861
62448.8,59,377.5,32177.5,VIL05-1B-59T,37.75,835.04,6.99,1,24242,1140,207129,2565,669,101865,495,1256,9892,585,2838,573,40085,20520
62703.6,60,105,32320.75,VIL05-1B-60T,10.5,985.04,7.15,1,24424,814,243985,1987,696,76203,336,857,11539,374,2571,158,37927,19956
62952.1,60,225,32458.75,VIL05-1B-60T,22.5,1105.04,6.52,0,23839,731,253815,1539,514,58007,461,737,13243,446,2303,432,37901,19934
63198.9,60,345,32596.75,VIL05-1B-60T,34.5,1225.04,6.7,1,23784,732,232007,1957,743,71592,426,967,12389,303,2347,378,38633,19966
63367.4,60,465,32734.75,VIL05-1B-60T,46.5,1345.04,7.25,1,26235,257,370618,613,939,16650,425,0,12556,263,1721,331,34952,19523
63843.6,61A,160,33026.4,VIL05-1B-61AT,16,370.07,6.88,1,24158,310,277538,920,891,32095,404,145,12556,534,2216,519,41548,21213
64190,61A,400,33276,VIL05-1B-61AT,40,610.07,7.04,1,24612,183,305745,545,760,20823,416,117,13487,462,2272,396,39800,21477
64625.3,61B,100,33555,VIL05-1B-61BT,10,890.07,7.37,1,26896,260,393405,263,1070,18351,407,25,14706,447,1932,512,34810,20001
64981.6,62,160,33816.8,VIL05-1B-62T,16,1150.07,7.05,1,24968,606,345817,409,931,12717,370,0,13653,303,2125,281,37353,20439
65375.8,62,400,34052,VIL05-1B-62T,40,1390.07,7.26,1,11250,120,103390,293,179,11448,431,329,9638,488,1742,213,25030,12826
65733.1,63,240,34295.2,VIL05-1B-63T,24,235.07,7.12,1,25226,516,300358,1097,845,41300,295,603,14972,432,2169,538,38785,20022
66079.5,63,480,34530.4,VIL05-1B-63T,48,475.07,7.17,1,24537,559,289769,1095,955,31638,315,425,16337,735,2433,387,40167,20800
66478.2,64,115,34794.55,VIL05-1B-64T,11.5,715.07,7.07,1,24985,466,297840,919,1064,32590,617,512,16268,526,2458,341,41322,20810
66905.6,64,355,35075.35,VIL05-1B-64T,35.5,955.07,6.95,1,24790,491,259843,1286,1082,63221,290,469,15250,472,2577,409,40987,20666
67224.1,64,595,35356.15,VIL05-1B-64T,59.5,1195.07,7.32,1,24805,496,228298,1320,849,131202,224,668,13059,556,2265,570,35546,18789
67539.4,65,235,35590.3,VIL05-1B-65T,23.5,1430.07,7.04,1,26725,946,138538,3202,324,232421,310,1909,11269,772,3113,1024,41393,19447
67833.5,65,475,35825.5,VIL05-1B-65T,47.5,1670.08,7.12,1,27408,828,154830,2696,413,244773,186,1976,11889,672,2886,1016,38907,19340
68062.8,66,115,36017.5,VIL05-1B-66T,11.5,1520.07,7.02,1,24654,1353,115302,4299,333,166482,463,2922,11845,838,3588,743,47684,21827
69269.5,68,175,36895,VIL05-1B-68T,17.5,185.07,6.63,1,25338,1608,5057,7628,0,196433,714,4334,6422,994,5848,1083,69459,23058
69593.6,68,415,37135,VIL05-1B-68T,41.5,425.08,6.47,0,22092,1420,77267,5315,853,125055,690,3681,7490,1100,3887,544,52330,22010
69945.2,69,70,37387.9,VIL05-1B-69T,7,670.07,6.85,1,22114,1530,145263,3507,1137,79729,471,2403,10993,769,3740,275,47229,22096
70344.3,69,310,37620.7,VIL05-1B-69T,31,910.08,6.34,0,8935,276,17797,613,0,13844,232,1524,3343,736,3028,2259,32710,14648
70619.6,70,240,37960,VIL05-1B-70T,24,1270.07,7.04,1,22203,1188,166091,3003,558,74027,478,1244,12296,628,3199,202,44580,21307
70862.7,70,480,38200,VIL05-1B-70T,48,1510.08,7.05,1,22639,1316,121810,4146,668,94577,622,2779,10713,1005,4242,555,51143,22432
71142.6,71,125,38448.75,VIL05-1B-71T,12.5,135.07,8.05,1,25298,1214,86485,5552,250,153429,634,3880,9133,1131,4838,750,60550,22853
71417.9,71,365,38695.95,VIL05-1B-71T,36.5,375.08,7.44,1,17727,2372,62850,756,66,24850,238,2462,3885,416,3543,180,57712,23845
71675,72,30,38926.8,VIL05-1B-72T,3,630.07,6.84,1,23263,71,220551,815,0,62554,289,296,12465,616,2336,561,43213,20179
71947.1,72,270,39181.2,VIL05-1B-72T,27,870.07,7.3,1,24265,159,252171,942,0,34439,517,776,16090,634,2319,401,46016,21077
72213.2,73,120,39440,VIL05-1B-73T,12,115.07,6.83,1,26628,233,183365,1131,53,79366,489,1069,11374,615,3680,607,69457,23004
72460.7,73,360,39680,VIL05-1B-73T,36,355.07,7.02,1,24218,624,153959,2262,323,67210,368,784,11143,644,3516,292,61477,22471
72729.3,74,5,39982.65,VIL05-1B-74T,0.5,1030.08,7.54,1,23729,689,154055,2089,451,103609,491,1646,11824,768,3199,517,51068,21414
72849.6,74,245,40109.85,VIL05-1B-74T,24.5,1270.08,7.73,1,24754,479,128489,1667,277,118601,464,1252,12260,924,3357,514,61588,22845
72980,75,165,40240.75,VIL05-1B-75T,16.5,165.07,6.62,1,24893,749,76892,3326,514,129643,614,2642,8916,961,3954,346,69435,23236
73125.4,75,405,40372.75,VIL05-1B-75T,40.5,405.08,6.65,1,22309,688,200855,1224,742,58242,384,1121,19505,729,2655,420,43163,20051
73306,76,235,40558.6,VIL05-1B-76T,23.5,660.07,6.66,1,23924,767,188829,1868,1194,68485,432,1449,19651,652,2973,421,50562,22622
73530.7,77,60,40761.2,VIL05-1B-77T,6,665.07,6.65,1,26585,184,22113,1672,0,207144,544,1098,4490,580,4767,1159,82914,19595
73713.6,77,300,40946,VIL05-1B-77T,30,905.07,6.8,1,25540,972,61158,4350,173,195484,390,3088,7274,743,4103,1029,60766,21285
73911.8,77,540,41130.8,VIL05-1B-77T,54,1145.07,7.27,1,27042,900,81391,3290,0,250391,227,2737,7195,438,3559,1062,52162,19488
74120.3,78,200,41329,VIL05-1B-78T,20,1405.07,7.09,1,23623,1360,110673,4323,1079,117385,405,2830,9563,1116,3758,542,53451,22363
74345.7,78,440,41513.8,VIL05-1B-78T,44,1645.07,6.97,1,23175,979,107312,4109,993,104485,581,3111,10123,936,4240,481,56060,22790
74503.7,79,80,41695.8,VIL05-1B-79T,8,960.07,6.83,1,23114,1211,149578,3330,1020,90621,486,2234,13519,670,3363,377,49572,21668
74707.7,80,130,41913.9,VIL05-1B-80T,13,140.08,6.5,0,23821,445,265604,1099,830,39132,462,216,17291,461,2362,440,40079,20022
74944.1,80,370,42161.1,VIL05-1B-80T,37,380.07,6.66,1,24955,634,130194,2512,626,159080,255,1772,12645,765,3267,646,50423,21051
75207.6,81,55,42436.1,VIL05-1B-81T,5.5,670.08,6.62,1,23064,1219,115891,4021,1132,119663,331,2762,10699,757,3555,396,48785,21657
75427.3,81,295,42680.9,VIL05-1B-81T,29.5,910.08,6.89,1,22971,1233,106870,4351,680,105616,481,3164,10538,1110,3835,601,53696,22496
75683.2,81,535,42925.7,VIL05-1B-81T,53.5,1150.07,7.09,1,22904,1372,117384,4288,638,93174,298,2962,10922,815,4243,587,52297,23064
75935.9,82,210,43190,VIL05-1B-82T,21,1410.08,7.24,1,23610,1091,167033,2922,504,104845,472,1384,13659,520,3053,430,44082,20978
76901.5,84,75,44115,VIL05-1B-84T,7.5,75.07,7.65,1,25942,377,319871,495,827,23188,567,0,28505,232,2030,298,41318,20373
77145.9,84,315,44355,VIL05-1B-84T,31.5,315.07,7.69,1,25748,299,299315,427,634,24974,558,117,30524,669,2424,522,44467,20936
77464.8,84,595,44635,VIL05-1B-84T,59.5,595.07,7.74,1,13440,93,111311,272,67,11186,354,368,15619,483,1897,349,33566,15136
77704.1,85,250,44890,VIL05-1B-85T,25,1140.07,7.24,1,23884,757,201428,2220,672,51052,590,1185,15808,553,3158,329,48961,22029
77921,85,490,45130,VIL05-1B-85T,49,1380.07,7.1,1,26281,247,71799,1412,0,64185,967,943,12161,893,4245,465,94743,25128
78178.5,86,150,45390,VIL05-1B-86T,15,1650.07,7.04,1,23624,1483,103161,4642,477,129096,585,2286,9598,714,3958,460,53017,21979
78491.7,87,205,45702.4,VIL05-1B-87T,20.5,215.07,7,1,25325,1426,30695,6084,97,248223,267,3453,5493,609,4694,1066,53933,20440
78905,87,445,46009.6,VIL05-1B-87T,44.5,455.08,7.11,1,19201,3664,48932,2988,100,39596,205,2729,3126,479,7199,392,60184,24517
79179,88,225,46325,VIL05-1B-88T,22.5,710.07,6.98,1,23631,1404,21480,7018,97,175606,498,3727,4896,543,5234,780,59232,22084
79440.1,88,465,46565,VIL05-1B-88T,46.5,950.07,6.73,1,20199,2627,52815,2816,139,57570,228,2360,2957,214,4796,170,60970,23580
79706.6,89,105,46808.15,VIL05-1B-89T,10.5,1200.07,7.14,1,23193,1582,95749,4358,944,142151,481,2583,6141,843,4850,271,49190,21851
79954.7,89,345,47055.35,VIL05-1B-89T,34.5,1440.07,7.09,1,26867,1428,97840,4372,1252,276693,437,2678,5120,658,3268,1050,40959,19520
80218.1,90,5,47305,VIL05-1B-90T,0.5,15.08,6.66,1,24275,1469,99451,4914,2403,186995,252,3366,5747,954,3667,696,45366,21101
80485.1,90,245,47545,VIL05-1B-90T,24.5,255.07,6.77,1,24646,1543,83862,5524,1857,207850,378,3556,5628,1144,3508,927,46005,21026
80733.9,90,485,47785,VIL05-1B-90T,48.5,495.07,7.05,1,30040,1528,45109,5757,1159,421214,260,4310,4364,381,2656,2096,38361,17489
81048.3,91,125,48082.5,VIL05-1B-91T,12.5,735.07,7.05,1,24723,1693,7472,8575,108,199318,696,3717,5488,1194,6278,799,65376,23057
81313.6,91,365,48317.7,VIL05-1B-91T,36.5,975.07,7.16,1,22875,1976,107294,5553,1671,109630,455,2889,6945,1266,4863,393,52667,23294
82355.2,91,605,48552.9,VIL05-1B-91T,60.5,1215.35,6.7,0,15952,480,12741,3235,166,83476,538,2434,5770,1315,3535,654,55738,17587
82615,94,20,49427.4,VIL05-1B-94T,2,30.07,6.9,1,24943,243,305342,603,294,23783,478,596,20742,461,2421,518,40009,20950
82848.1,94,260,49636.2,VIL05-1B-94T,26,270.07,6.96,0,25214,246,26390,1465,0,182548,834,1593,7703,1004,4034,758,79477,21088
83103.4,94,500,49845,VIL05-1B-94T,50,510.08,7.07,1,25650,1329,7338,6950,228,202877,742,4719,5712,368,5239,1017,67209,22493
83362.5,95,145,50056.15,VIL05-1B-95T,14.5,750.07,7.22,1,25529,859,69643,2777,0,182884,797,2931,6754,1007,4164,808,65031,22106
83795.4,95,385,50264.95,VIL05-1B-95T,38.5,990.07,6.94,1,26549,1075,27054,5924,289,205189,775,4387,6620,1148,4446,838,72890,23025
84338,96,45,50487.8,VIL05-1B-96T,4.5,1255.07,7.19,1,25855,148,311626,258,184,27223,592,34,14783,449,2237,502,46166,21383
84817.4,96,285,50689.4,VIL05-1B-96T,28.5,1495.07,7.04,1,24404,617,187712,1688,204,75404,425,591,13187,755,3332,597,52854,21939
85353.2,96,525,50891,VIL05-1B-96T,52.5,1735.08,6.81,1,28668,538,20394,3686,153,172260,1049,2803,5751,476,4723,871,93526,23889
85835.1,97,210,51098.5,VIL05-1B-97T,21,220.07,6.98,1,23973,1070,183129,2471,440,101652,396,810,12297,839,3641,345,45269,21577
86335.4,97,450,51302.5,VIL05-1B-97T,45,460.07,7.08,1,22838,1234,174130,3226,434,78074,414,1559,12202,431,3636,502,44990,21397
86812.5,98,90,51502,VIL05-1B-98T,9,710.08,7.13,1,24410,506,283403,907,546,38649,481,440,15382,618,2475,212,38956,20533
87290,99,235,51709.75,VIL05-1B-99T,23.5,995.07,6.9,1,22431,1141,213718,2342,616,56329,395,1190,10459,651,3233,331,40050,20115
87758.7,99,475,51913.75,VIL05-1B-99T,47.5,1235.07,6.91,1,23119,1404,233299,1916,607,40157,426,942,10925,778,3798,360,44031,21951
88277.5,100,130,52130.5,VIL05-1B-100T,13,130.07,7.1,1,23596,1389,221652,2153,3307,70711,306,1086,6981,880,3096,511,42157,20951
88696.1,100,370,52334.5,VIL05-1B-100T,37,370.07,7.17,1,23189,1605,178239,3565,1330,92489,344,1649,7387,482,3432,370,42809,20937
89133.6,101,110,52547.4,VIL05-1B-101T,11,635.07,7.13,1,22905,1595,148386,3818,754,101592,555,2151,10321,603,3354,536,45797,21012
89623.1,101,350,52749,VIL05-1B-101T,35,875.07,7.02,1,22886,1669,171603,3426,1093,97906,268,1477,8031,697,2855,452,41573,20690
90138,101,590,52950.6,VIL05-1B-101T,59,1115.08,6.95,1,16670,905,107193,2186,1069,49206,328,1478,7055,927,2925,435,39179,19384
90648.7,102,245,53165.8,VIL05-1B-102T,24.5,1370.07,7.17,1,24841,1087,302225,1145,1227,41336,400,367,13891,328,2292,248,38128,20256
91184.7,102,485,53367.4,VIL05-1B-102T,48.5,1610.08,7.16,1,26153,743,308303,1248,1403,59407,208,472,12427,408,2038,320,38774,20466
91794.5,103,150,53591,VIL05-1B-103T,15,150.07,7.13,1,22641,1450,201067,2764,1049,53026,575,1173,8975,273,3735,262,43373,21226
92584.9,104,100,53870,VIL05-1B-104T,10,450.08,7.15,1,24373,1366,230047,2367,1629,74052,321,1046,10324,533,2765,344,41763,21060
93164.4,104,340,54074,VIL05-1B-104T,34,690.07,7.08,1,23190,1307,212270,2634,1765,70890,486,1131,7706,438,2759,317,40279,20814
93722.9,105,200,54283,VIL05-1B-105T,20,955.07,7.15,1,23145,1687,195651,3267,698,72887,289,1626,7872,648,2922,340,42468,21320
94275.3,105,440,54484.6,VIL05-1B-105T,44,1195.07,7.12,1,24416,1755,7458,7451,72,129654,975,4505,8834,1127,6063,864,77049,24147
94839.1,106,85,54698.2,VIL05-1B-106T,8.5,95.07,7.16,1,26705,1009,35084,4095,50,187079,684,1850,10342,1396,4908,1005,77652,22879
95402.8,106,325,54919,VIL05-1B-106T,32.5,335.07,7.2,1,28042,409,64052,1476,0,137680,1083,1923,8826,1032,4224,731,92874,23720
95991.8,107,205,55150.6,VIL05-1B-107T,20.5,600.07,6.86,1,24899,829,243371,1644,659,73531,374,818,13365,567,2812,369,44691,21363
96579.2,107,445,55371.4,VIL05-1B-107T,44.5,840.07,7.04,1,28589,357,45508,2061,0,174887,840,1298,9485,984,4644,810,91806,23245
97216.2,108,60,55597.2,VIL05-1B-108T,6,1095.07,7.26,1,27637,873,28751,4328,87,161507,705,2920,8602,1051,4988,758,89175,24088
97800,108,300,55818,VIL05-1B-108T,30,1335.07,7.07,1,23615,1370,140737,3416,623,118122,374,1958,11652,1062,3317,428,48462,21188
98667.8,109,70,56131.4,VIL05-1B-109T,7,65.07,7.07,1,23371,1428,169957,3252,830,98879,249,1575,10492,733,3634,305,43865,20867
99273.4,109,310,56352.2,VIL05-1B-109T,31,305.07,7.13,1,22988,1328,166957,2983,1553,105401,398,1495,8569,868,3276,305,42151,20552
99869.3,109,550,56573,VIL05-1B-109T,55,545.07,7.43,1,24576,1200,209617,2266,584,93011,296,1512,12520,795,3145,511,44149,21348
100426.7,110,200,56794,VIL05-1B-110T,20,800.07,7.17,1,24292,1079,184535,2371,619,104920,341,1434,11803,690,3032,533,45823,21235
100979.2,110,440,57002.8,VIL05-1B-110T,44,1040.07,7.29,1,23520,1409,175418,3239,933,89071,510,1690,9696,733,3217,429,45876,21635
101472.1,111,80,57208.8,VIL05-1B-111T,8,1295.07,7.11,1,24896,498,297815,877,834,34702,410,561,14923,310,2242,298,40426,20450
101966.8,111,320,57415.2,VIL05-1B-111T,32,1535.07,7.4,1,26478,277,381492,77,689,17998,475,0,15416,268,1726,198,35386,19680
102466.9,111,560,57621.6,VIL05-1B-111T,56,1775.07,6.72,1,23980,191,322921,155,575,8809,366,0,16834,431,1854,645,39519,20406
103174.2,112,350,57900,VIL05-1B-112T,35,370.07,7.35,1,18304,230,189777,196,206,6618,376,276,17001,543,2200,1792,40803,20949
103677.8,113,250,58100,VIL05-1B-113T,25,250.07,6.96,1,25105,305,327450,268,510,10264,469,0,15719,409,2167,514,40657,21096
104470.4,113,490,58292,VIL05-1B-113T,49,490.07,6.93,1,25797,309,335089,296,571,11446,417,228,20564,271,2085,273,41901,21072
105027.4,114,240,58572,VIL05-1B-114T,24,830.07,6.97,1,25486,245,307878,363,350,18032,476,53,20408,66,2078,425,43675,20572
105567.6,114,480,58764,VIL05-1B-114T,48,1070.07,6.94,1,24773,550,297194,825,587,16914,528,109,17401,21,2196,385,43168,21033
106154.5,115,135,58966.65,VIL05-1B-115T,13.5,1335.08,7.21,1,25003,708,265648,1220,581,35101,488,847,16363,492,2619,421,47328,21522
106716.7,115,375,59156.25,VIL05-1B-115T,37.5,1575.07,7.13,1,24442,884,242597,1861,691,47281,546,1009,16299,495,2811,370,45638,21224
107254.8,116,40,59351.6,VIL05-1B-116T,4,460.07,7.12,1,23412,1166,235647,1830,786,52911,343,1061,12491,554,2736,365,42922,21525
107782.4,116,280,59541.2,VIL05-1B-116T,28,700.07,7.14,1,23637,1246,216431,2312,1097,66935,292,1201,12363,764,2844,325,43531,21648
108272.4,117,150,59734,VIL05-1B-117T,15,935.07,7.06,1,23099,1146,214691,2008,949,64577,386,890,12335,567,2763,573,42659,21209
108856.9,117,490,59992.4,VIL05-1B-117T,49,490.07,7,1,20033,261,177732,397,73,57554,611,121,11424,364,1959,160,40318,18989
109294.4,118,130,60172.8,VIL05-1B-118T,13,155.07,7.04,1,25414,283,320593,344,438,21446,412,98,11427,373,1966,351,42723,20866
109705.3,118,370,60355.2,VIL05-1B-118T,37,395.07,7.07,1,24996,495,302317,792,633,29689,537,453,21101,680,2681,238,40151,20783
110139.8,119,50,60536,VIL05-1B-119T,5,670.07,7.05,1,25914,516,323175,686,716,28738,478,288,22446,713,2250,389,39744,20411
110583.3,119,290,60718.4,VIL05-1B-119T,29,910.07,6.99,1,26204,272,350075,384,622,21465,399,0,20662,357,2013,397,38123,19544
111040.9,120,45,60904.2,VIL05-1B-120T,4.5,1270.07,7.16,1,24784,742,297545,990,524,26931,445,368,14508,453,2280,358,42735,21449
111527.3,120,285,61086.6,VIL05-1B-120T,28.5,1510.08,7.2,1,26336,338,383176,196,596,10852,372,0,12562,311,1643,452,36989,20272
112197.8,121,235,61343.6,VIL05-1B-121T,23.5,235.08,6.59,1,25121,92,346181,53,222,5449,442,0,13942,300,1902,270,39415,20443
112660.4,121,475,61526,VIL05-1B-121T,47.5,475.07,6.78,1,24651,364,333491,394,196,10970,299,53,13188,188,1913,357,38102,19013
113093.2,122,180,61702.8,VIL05-1B-122T,18,770.07,6.79,1,26584,170,371176,67,263,5529,478,0,18047,336,1834,316,41307,20744
113533.3,122,420,61885.2,VIL05-1B-122T,42,1010.07,7.04,1,26430,124,351427,85,296,5726,553,0,17525,483,2066,428,44615,21186
114009.8,123,80,62084.8,VIL05-1B-123T,8,1280.07,7.11,1,29021,202,45097,1455,0,95894,1056,624,13304,788,5023,527,112414,26147
114482.3,123,320,62279.2,VIL05-1B-123T,32,1520.08,7.26,1,25234,144,288691,353,209,28998,289,0,14067,324,2127,448,47375,21407
114930.1,124,100,62481,VIL05-1B-124T,10,100.07,6.9,1,26064,0,350874,62,33,11295,352,0,11457,368,1885,500,41719,21332
115339.4,124,340,62675.4,VIL05-1B-124T,34,340.08,6.93,1,25122,72,308029,143,188,15794,527,0,11025,506,2240,341,47571,21841
115905.6,125,245,62978.45,,,245.04,7.1,1,26017,0,332568,0,263,9086,374,0,15097,1094,3009,819,47903,25326
116099,125,365,63075.65,,,365.04,6.69,1,23921,128,269032,151,160,14328,590,0,16834,1296,3442,285,53041,25190
116292,125,485,63172.85,,,485.04,6.65,1,23369,9,231985,37,321,22025,589,195,16860,1517,3427,706,56098,26775
116446.2,126,20,63256.2,,,655.04,6.73,1,25608,252,295103,346,572,31798,633,545,19312,1759,3630,592,51305,25331
116640.7,126,140,63353.4,,,775.04,6.63,1,24803,249,280096,487,462,28298,518,822,20024,1479,3292,610,49061,25075
116844.1,126,260,63450.6,,,895.04,6.81,1,23256,334,178110,1367,380,52215,440,1398,16140,1687,3987,296,58749,25747
117040.1,126,380,63547.8,,,1015.04,6.72,1,22174,907,224933,1120,619,22958,656,911,19343,1369,4676,579,46866,23956
117233.4,126,500,63645,,,1135.04,7.05,1,23098,1119,183910,2513,960,63869,590,2294,15142,1717,4670,691,50052,25542
117555.2,127,125,63793.25,VIL05-1B-127T,12.5,125.07,7.18,1,20444,2820,122419,2755,800,36427,262,2121,5865,487,4698,260,54164,23076
118157.5,127,460,64064.6,VIL05-1B-127T,46,475.07,7.31,1,22946,1761,171302,2919,2586,82998,237,1968,8468,591,3631,285,45920,21490
118572.6,128,140,64265.4,VIL05-1B-128T,14,750.07,7.01,1,21842,1424,172575,2548,870,74122,518,1588,10090,722,3228,264,42206,20885
118967.6,128,380,64459.8,VIL05-1B-128T,38,990.07,6.95,1,23739,987,249742,1456,1105,48172,390,1022,16956,513,2702,267,41266,20470
119396.1,129,40,64656.4,VIL05-1B-129T,4,1250.07,7.1,1,23654,1040,229109,2208,1271,58276,401,1097,11276,379,2822,317,42295,21970
119842.3,129,280,64874.8,VIL05-1B-129T,28,1490.07,7.03,1,23102,1363,217928,2372,835,49438,375,1153,11491,612,3409,375,44949,21986
120298.1,129,520,65093.2,VIL05-1B-129T,52,1730.07,6.62,1,24077,494,326494,257,530,8561,219,93,12248,298,2118,250,39402,20069
120548.9,130,205,65294.5,VIL05-1B-130T,20.5,220.07,7.03,1,26508,153,347760,91,295,9521,469,263,14040,461,2186,265,44378,21250
120994.7,131,270,65590.7,VIL05-1B-131T,27,565.08,7.06,1,25602,153,311542,380,506,17135,309,0,20376,430,2286,612,43903,20832
121307.1,131,510,65809.1,VIL05-1B-131T,51,805.07,6.94,1,25078,183,287264,172,581,12747,598,34,22238,628,1901,647,49156,21530
121599.8,132,195,66010.5,VIL05-1B-132T,19.5,1095.08,7.23,1,25401,175,285407,211,444,9955,549,194,20142,532,2588,306,51816,22252
121946.4,132,435,66226.5,VIL05-1B-132T,43.5,1335.07,7.24,1,25657,0,316328,127,549,4604,278,0,20421,411,2332,642,46684,20983
122260,133,190,66436,VIL05-1B-133T,19,205.07,7.05,1,24829,51,284835,153,596,5939,546,0,21078,580,2203,268,49415,21489
122635,133,430,66652,VIL05-1B-133T,43,445.07,6.85,1,25171,592,209582,1311,688,65952,498,1446,18946,739,3013,430,53826,23329
122957,134,175,66862.5,VIL05-1B-134T,17.5,780.07,6.84,1,24141,569,227166,902,965,44941,514,827,20339,731,2602,514,50438,22115
123317.4,134,415,67078.5,VIL05-1B-134T,41.5,1020.07,6.94,1,24100,1363,200797,2287,1017,90146,434,1379,15303,677,3034,389,45176,21127
123703.2,135,80,67328,VIL05-1B-135T,8,1285.07,7.24,1,22820,1616,250686,1404,903,21845,297,523,19206,688,3038,342,41234,21760
124166,135,320,67652,VIL05-1B-135T,32,1525.07,7.3,1,23392,1507,169409,2732,952,99747,373,1806,12803,647,3449,397,44610,21765
124657.1,136,15,68050.25,VIL05-1B-136T,1.5,35.34,7.15,0,17921,888,164140,955,307,33674,407,653,8826,473,2837,367,37528,18467
125062,137,120,68367,VIL05-1B-137T,12,310.07,6.91,1,26395,72,153662,438,0,65273,763,164,11617,1157,3836,508,81018,23653
125490.6,137,360,68691,VIL05-1B-137T,36,550.07,6.76,1,25206,88,314180,107,307,16044,637,0,15329,408,2147,499,46622,21298
125870.9,138,22.5,69006.05,VIL05-1B-138T,2.25,810.07,6.9,1,23283,291,236400,542,394,20588,430,340,16810,661,2656,528,50290,22047
126138.4,139,155,69233.15,VIL05-1B-139T,15.5,1075.07,7.36,1,25505,87,344752,99,500,17818,505,0,13760,252,1810,638,38804,20069
126383.3,140,130,69412.9,VIL05-1B-140T,13,130.07,6.83,1,25627,156,344623,61,448,15425,320,90,17040,375,1839,442,40509,20379
126696.3,140,470,69661.1,VIL05-1B-140T,47,480.08,6.9,1,26145,155,352466,51,382,6170,353,94,30686,528,2001,661,41012,20474
126928.4,141,175,69833.75,VIL05-1B-141T,17.5,785.07,7.01,1,25916,60,342557,75,407,12514,471,90,33163,542,2147,413,39377,19940
127131.5,142,180,70015.2,VIL05-1B-142T,18,180.07,6.91,1,26904,150,366227,130,464,7844,475,210,38137,567,1980,384,38704,19582
127439.3,142,510,70259.4,VIL05-1B-142T,51,505.07,7.05,1,25157,307,309764,349,380,14240,545,247,27476,516,2292,458,43904,20999
127638.1,143,200,70433,VIL05-1B-143T,20,1095.07,6.67,1,25264,160,335614,89,331,7747,450,250,32938,470,2307,478,38356,19909
127866.9,144,15,70612.95,VIL05-1B-144T,1.5,625.07,7.3,1,26777,154,355605,68,302,5394,519,103,29234,393,2263,472,43914,21067
128054.2,144,255,70788.15,VIL05-1B-144T,25.5,865.07,7.3,1,26555,158,340619,43,337,8876,583,0,21890,654,2229,643,47491,20928
128266.7,144,495,70963.35,VIL05-1B-144T,49.5,1105.08,7.17,1,27295,217,373730,170,565,13134,422,88,29368,250,2182,430,38821,20029
128682.4,145,270,71298.1,VIL05-1B-145T,27,255.07,7.01,1,25466,272,296906,393,323,15644,396,319,43402,622,2542,561,44705,20353
128994.4,146,175,71548.5,VIL05-1B-146T,17.5,1375.07,7.18,1,23743,928,230764,1842,850,67467,474,771,12040,859,2549,337,40092,20408
129266.7,146,415,71793.3,VIL05-1B-146T,41.5,1615.07,7.19,1,26178,954,65927,3874,0,161372,659,3126,7847,1021,4526,441,70914,21990
129579.3,147,200,72040,VIL05-1B-147T,20,540.07,6.95,1,23983,534,222309,1057,113,52700,487,580,42481,513,2767,399,43444,20022
129855,147,440,72280,VIL05-1B-147T,44,780.08,6.97,1,27357,559,21902,3923,0,116252,1047,1517,7589,1332,5414,714,101847,25088
130152.4,148,90,72531.8,VIL05-1B-148T,9,1040.07,7.06,1,23044,976,246358,871,667,31160,501,453,16624,436,2478,464,41935,20644
130510.9,148,330,72776.6,VIL05-1B-148T,33,1280.07,7.12,1,20374,2441,105689,1672,352,52928,317,1598,6906,390,4278,452,53196,22489
130932.2,148,570,73021.4,VIL05-1B-148T,57,1520.07,7.31,1,23066,1794,170987,2089,316,66330,374,1116,18741,375,2913,164,49429,21192
131286.7,149,230,73274.6,VIL05-1B-149T,23,235.07,7.14,1,21771,1563,139101,1445,254,47761,490,1179,11403,678,3434,200,54725,22515
131479,149,570,73621.4,VIL05-1B-149T,57,575.07,7.02,1,12656,890,27763,2992,315,72753,295,1796,3998,638,2893,2739,30733,12093